onset	duration	trial_type	response_time	stim_file	resp
6.01005580311	0.5	face	0.650349085103	EMWfemale25neutral.bmp	1.0
7.2505684878	0.5	face	0.583651229739	WImale21-2neutral.bmp	2.0
8.50041254424	0.5	face	0.566923207254	WAfemale22neutral.bmp	1.0
9.75041254424	0.5	face	0.51693714899	TMWfemale29neutral.bmp	1.0
11.000425164	0.5	face	0.533551594242	EMWfemale26neutral.bmp	1.0
12.2504594175	0.5	face	0.550321982708	EMWfemale25neutral.bmp	1.0
13.5004422907	0.5	face	0.550275710528	TMWfemale23neutral.bmp	1.0
14.7504804503	0.5	face	0.600280998857	TMAfemale27neutral.bmp	1.0
16.0003981218	0.5	face	0.783576232614	Bmale_22.bmp	2.0
17.250459117	0.5	face	0.733570944401	WImale25-2neutral.bmp	2.0
18.5004624221	0.5	face	0.616947725532	WWfemale22-4neutral.bmp	1.0
19.7504765441	0.5	face	0.583569502109	WWfemale22-5neutral.bmp	1.0
21.0005426474	0.5	face	0.700196026126	WWmale23-2neutral.bmp	2.0
22.2505360371	0.5	face	0.683660003473	TMWmale20neutral.bmp	2.0
23.5004843564	0.5	face	0.650255639222	EMBmale26neutral.bmp	1.0
24.7505519619	0.5	face	0.833627492771	TMWfemale28-2neutral.bmp	1.0
26.0005627788	0.5	face	0.550246865489	TMWmale19neutral.bmp	2.0
27.2505110982	0.5	face	0.516943759285	WWmale20-2neutral.bmp	2.0
28.5004005255	0.5	face	0.616912871134	WWmale23-6neutral.bmp	2.0
29.750624976	0.5	face	0.616896044812	EMWfemale24-2neutral (1).bmp	1.0
31.0005110982	0.5	math		7	
32.2505222155	0.5	math		4	
33.5003924128	0.5	math	0.100293918978	4	1.0
34.7504756427	0.5	math	0.400257742498	4	1.0
36.0005450512	0.5	math	0.466931259958	9	2.0
37.2506934829	0.5	math	0.51697410678	4	1.0
38.5008551354	0.5	math	0.683664510492	3	1.0
39.7507088069	0.5	math	0.683618839132	6	2.0
41.001029107	0.5	math	0.533626110526	2	1.0
42.2506505159	0.5	math	0.900281179114	3	1.0
43.5105377558	0.5	scence	0.883605438285	w066.jpg	1.0
44.7507887317	0.5	scence		s063.jpg	
46.000600037	0.5	scence		s056.jpg	
47.2504603189	0.5	scence	0.866947725532	w069.jpg	1.0
48.5005396428	0.5	scence	0.8337401686	w078.jpg	1.0
49.7506931825	0.5	scence	0.750321201514	s051.jpg	2.0
51.0005964314	0.5	scence	0.700284664519	w066.jpg	1.0
52.2506183657	0.5	scence	0.700287969667	w077.jpg	1.0
53.5006430041	0.5	scence		s055.jpg	
54.7505856145	0.5	scence	0.883557062712	s060.jpg	2.0
56.0006532201	0.5	scence	0.816994418507	s061.jpg	2.0
57.2506727505	0.5	scence	0.683611327549	w069.jpg	1.0
58.5006505159	0.5	scence		s057.jpg	
59.7506430041	0.5	scence	0.633542640135	w078.jpg	1.0
61.0006658398	0.5	scence		s068.jpg	
62.2506180652	0.5	scence	0.700464345166	w075.jpg	1.0
63.5006228727	0.5	scence		s068.jpg	
64.7507073046	0.5	scence	0.600258463644	s052.jpg	2.0
66.0006156614	0.5	scence	0.899303452345	s065.jpg	2.0
67.2507298398	0.5	scence	0.71702200151	w066.jpg	1.0
68.5006691449	0.5	math	0.800264593214	9	2.0
69.7509666095	0.5	math	0.433574369759	9	2.0
71.0006451074	0.5	math	0.650255639222	3	1.0
72.250683868	0.5	math	0.583668957464	2	1.0
73.5007514735	0.5	math	0.600344698294	1	1.0
74.7506994923	0.5	math	0.550361344358	8	2.0
76.0007139149	0.5	math	0.66690584016	2	1.0
77.2508052575	0.5	math	0.633636987535	4	1.0
78.5007292388	0.5	math	0.600294519914	9	2.0
79.7508235861	0.5	math	0.483597385697	7	2.0
81.0102012303	0.5	face	0.766891477746	TMWmale26-2neutral.bmp	2.0
82.250966309	0.5	face	0.833598647732	EMWmale23-4neutral.bmp	2.0
83.5011186469	0.5	face	0.883565475815	EMImale24-3neutral.bmp	2.0
84.7510206939	0.5	face	0.850266576279	WWmale21-4neutral.bmp	2.0
86.0008578396	0.5	face	0.650267057004	EMWfemale27-3neutral.bmp	1.0
87.2508602433	0.5	face	0.717039729236	TMWmale26-2neutral.bmp	2.0
88.5008007505	0.5	face	0.650291695492	EMWfemale24-2neutral (1).bmp	1.0
89.751005971	0.5	face	0.800250771572	EMImale23neutral.bmp	2.0
91.0008996049	0.5	face	0.716969419504	EMImale21neutral.bmp	2.0
92.2508118679	0.5	face	0.650281479582	TMBmale21neutral.bmp	2.0
93.5009672104	0.5	face		TMWmale26-2neutral.bmp	
94.7508581401	0.5	face	0.733685423154	EMWmale24neutral.bmp	2.0
96.0010047691	0.5	face	0.65035629645	Wmale_23.bmp	2.0
97.250887586	0.5	face	0.666967135854	TMBfemale19-3neutral.bmp	1.0
98.5009509851	0.5	face	0.933605318074	EMWmale21neutral.bmp	1.0
99.7510558488	0.5	face	0.550330696395	TSFWfemale26neutral.bmp	1.0
101.001073877	0.5	face	0.61691918096	TMWmale25-2neutral.bmp	2.0
102.251074478	0.5	face	0.667233351618	WWmale21-4neutral.bmp	2.0
103.501047135	0.5	face	0.65031633398	WWmale23-6neutral.bmp	2.0
104.751063361	0.5	face		WWfemale29neutral.bmp	
106.00090261	0.5	math	0.766973205376	8	2.0
107.251066966	0.5	math	0.550281719887	9	2.0
108.500985539	0.5	math	0.783637828776	7	2.0
109.750985539	0.5	math	0.616916777217	9	2.0
111.001057051	0.5	math	0.583615173469	3	1.0
112.251060957	0.5	math	0.566868521855	4	1.0
113.50105675	0.5	math	0.583549070172	7	2.0
114.75099906	0.5	math	0.700235387543	7	2.0
116.001035417	0.5	math	0.533857471892	9	2.0
117.251271886	0.5	math	0.600242238375	3	1.0
118.509990601	0.5	scence	0.75033892924	w069.jpg	1.0
119.751598797	0.5	scence	0.800247165957	w053.jpg	1.0
121.001117746	0.5	scence	0.616908364114	s051.jpg	2.0
122.251101821	0.5	scence	0.617032758426	w074.jpg	1.0
123.501147192	0.5	scence	0.73360279412	w058.jpg	1.0
124.751190459	0.5	scence	0.733657179051	w075.jpg	1.0
126.001247248	0.5	scence	0.766931740567	w062.jpg	1.0
127.25120368	0.5	scence	0.816964972531	s068.jpg	1.0
128.501298327	0.5	scence	0.700272946153	w066.jpg	1.0
129.751203379	0.5	scence	0.650290493621	s057.jpg	2.0
131.001326572	0.5	scence	0.683713487	w062.jpg	1.0
132.251372844	0.5	scence	0.883605738753	s056.jpg	1.0
133.501162215	0.5	scence	0.950306899264	s070.jpg	2.0
134.751256863	0.5	scence	0.800209006411	s055.jpg	1.0
136.001392975	0.5	scence	0.800302452291	s057.jpg	2.0
137.251288412	0.5	scence	0.767002651352	w058.jpg	1.0
138.501301933	0.5	scence	0.733758437098	w069.jpg	1.0
139.751484919	0.5	scence	0.650263451389	s061.jpg	2.0
141.001462684	0.5	scence	0.767080472899	w073.jpg	1.0
142.251330778	0.5	scence	0.883552555693	s068.jpg	1.0
143.501365332	0.5	math		1	
144.751295022	0.5	math		7	
146.001540806	0.5	math	0.583592337789	2	1.0
147.25133228	0.5	math	0.717017194023	9	2.0
148.501445858	0.5	math	0.633594020386	3	1.0
149.751480412	0.5	math	0.75026831904	6	2.0
151.001440149	0.5	math	0.566961667268	2	1.0
152.251407398	0.5	math	0.550340010901	9	2.0
153.501443755	0.5	math	0.566920503043	4	1.0
154.751520975	0.5	math	0.517003252287	9	2.0
156.010947896	0.5	face	0.700254918076	WWmale23-6neutral.bmp	2.0
157.251643567	0.5	face	0.783642936731	EMBmale20neutral.bmp	2.0
158.501454271	0.5	face	0.800415128237	TMWmale20neutral.bmp	2.0
159.751504449	0.5	face	0.650235507754	EMIfemale25-2neutral.bmp	1.0
161.001510759	0.5	face	0.633528818609	WWfemale29neutral.bmp	1.0
162.251522177	0.5	face	0.650244221324	WHfemale18neutral.bmp	1.0
163.501518872	0.5	face	0.700265735039	EMWmale19-2neutral.bmp	2.0
164.751464487	0.5	face	0.700374204316	EMWfemale25neutral.bmp	1.0
166.001612618	0.5	face	0.75026441284	EMImale23neutral.bmp	2.0
167.251574158	0.5	face	0.70031711529	EMWfemale22-4neutral.bmp	1.0
168.501575961	0.5	face	0.833619380021	TMAfemale27neutral.bmp	1.0
169.751599999	0.5	face	0.733739808085	EMImale23neutral.bmp	2.0
171.001623435	0.5	face	0.550221926533	TMWmale20neutral.bmp	2.0
172.251624036	0.5	face	0.63362226449	TMBfemale19-2neutral.bmp	1.0
173.501644468	0.5	face	0.766946764081	WImale25-4neutral.bmp	2.0
174.751660994	0.5	face	0.683554238291	TMWfemale26neutral.bmp	1.0
176.001743022	0.5	face	0.950294880429	TSFWmale23neutral.bmp	1.0
177.251667905	0.5	face	0.816987207276	EMWfemale25neutral.bmp	1.0
178.501699153	0.5	face	0.600427327328	EMImale23-3neutral.bmp	2.0
179.751637858	0.5	face	0.650369817507	TMBfemale18neutral.bmp	1.0
181.001732205	0.5	math	0.917014309554	3	1.0
182.251803116	0.5	math	0.550276611932	1	1.0
183.501683229	0.5	math	0.433699064422	1	1.0
184.751852393	0.5	math	0.466840818641	8	2.0
186.001775773	0.5	math	0.550215917174	7	2.0
187.251801012	0.5	math	0.516899289913	8	2.0
188.501739717	0.5	math	0.816997122718	7	2.0
189.75182535	0.5	math	0.533926579752	4	1.0
191.001813332	0.5	math	0.516885468387	8	2.0
192.251828956	0.5	math	0.533582843025	1	1.0
193.51066846	0.5	scence	0.867026148015	s070.jpg	2.0
194.752091266	0.5	scence	0.616873209248	w062.jpg	1.0
196.001825651	0.5	scence	0.716916536796	w077.jpg	1.0
197.25183136	0.5	scence	0.800395297236	s059.jpg	2.0
198.502030871	0.5	scence	0.933621242875	s060.jpg	2.0
199.751851191	0.5	scence	0.666990272002	w058.jpg	1.0
201.001958759	0.5	scence	0.933636266389	s056.jpg	1.0
202.252015247	0.5	scence	0.833665952785	s054.jpg	2.0
203.501992712	0.5	scence		s055.jpg	
204.751864412	0.5	scence	0.333624487976	w062.jpg	1.0
206.002008036	0.5	scence	0.950415368541	s068.jpg	1.0
207.252184712	0.5	scence	0.533474073047	w074.jpg	1.0
208.501984599	0.5	scence	0.832762441831	s065.jpg	2.0
209.751975585	0.5	scence	0.817010944244	s054.jpg	2.0
211.001976487	0.5	scence	0.533599368762	w053.jpg	1.0
212.252059716	0.5	scence	0.716936367797	s063.jpg	2.0
213.502165181	0.5	scence	0.800281118951	w078.jpg	1.0
214.752137538	0.5	scence	0.800266996957	s068.jpg	1.0
216.002121613	0.5	scence	0.683670519851	s056.jpg	1.0
217.252108392	0.5	scence	0.617146936711	s061.jpg	2.0
218.502212956	0.5	math	0.783563312492	1	1.0
219.752176599	0.5	math	0.56692531053	4	1.0
221.002134834	0.5	math	0.550330696395	7	2.0
222.252105688	0.5	math	0.45024019503	9	2.0
223.502224374	0.5	math	0.450309903943	9	2.0
224.752219566	0.5	math	0.550242959405	3	1.0
226.002222571	0.5	math	0.61694652366	7	2.0
227.252257125	0.5	math	0.583617276629	3	1.0
228.502197031	0.5	math	0.666948206373	1	1.0
229.752353575	0.5	math	0.700467349729	3	1.0
231.012253435	0.5	face	0.817065930227	WWmale28-2neutral.bmp	2.0
232.293008562	0.5	face	0.60033267946	Bmale_22.bmp	2.0
233.518959307	0.5	face	0.566896765959	TMBfemale19neutral.bmp	1.0
234.768992959	0.5	face	0.600159909693	EMImale24neutral.bmp	2.0
236.018906424	0.5	face	0.550338508678	EMWfemale24-2neutral.bmp	1.0
237.269010988	0.5	face	0.683556942502	TMWfemale28-2neutral.bmp	1.0
238.518949091	0.5	face	0.666949107777	WWmale22-2neutral.bmp	2.0
239.769052152	0.5	face	0.80022673402	EMWmale21-2neutral.bmp	2.0
241.018983044	0.5	face	0.566983000725	TMWfemale29neutral.bmp	1.0
242.268985748	0.5	face	0.716921945335	TMWmale20-3neutral.bmp	2.0
243.518998969	0.5	face	0.616964551853	TMBfemale19neutral.bmp	1.0
244.769017297	0.5	face	0.65022138576	EMImale25-3neutral.bmp	2.0
246.019008884	0.5	face	0.716876574443	EMImale24neutral.bmp	2.0
247.269129372	0.5	face	0.916918159346	TMWfemale24-2neutral.bmp	1.0
248.519133279	0.5	face	0.766834688955	TMWmale22-3neutral.bmp	2.0
249.769425335	0.5	face	0.650255639106	TMWfemale29neutral.bmp	1.0
251.019088208	0.5	face		TMBmale18neutral.bmp	
252.269038631	0.5	face	0.483762643649	EMWfemale26neutral.bmp	1.0
253.519186762	0.5	face	0.80023634911	WWmale23-4neutral.bmp	2.0
254.769151607	0.5	face	0.616906260722	WWmale21-2neutral.bmp	2.0
256.019203288	0.5	math	0.933669317979	7	2.0
257.269286518	0.5	math	0.383591917111	7	2.0
258.519413015	0.5	math	0.466884987545	3	1.0
259.769267588	0.5	math	0.567001930322	9	2.0
261.019367344	0.5	math	0.70023148146	2	1.0
262.269357729	0.5	math	0.650247526588	7	2.0
263.519253767	0.5	math	0.616905359318	8	2.0
264.769399494	0.5	math	0.800342414645	4	1.0
266.01936464	0.5	math	0.666871586698	3	1.0
267.269288321	0.5	math	0.567004333949	4	1.0
268.528655448	0.5	scence	0.833628093707	s059.jpg	2.0
269.76958909	0.5	scence	0.648993668496	w075.jpg	1.0
271.019538011	0.5	scence	0.566926812986	w053.jpg	1.0
272.269699062	0.5	scence		w078.jpg	
273.519546724	0.5	scence	0.583665351733	w058.jpg	1.0
274.769514274	0.5	scence	0.650211169734	s057.jpg	2.0
276.019447569	0.5	scence	0.850417712238	s063.jpg	2.0
277.26958248	0.5	scence	0.700277453288	w078.jpg	1.0
278.51947341	0.5	scence	0.583628694527	w074.jpg	1.0
279.769564452	0.5	scence	0.650316934916	s059.jpg	2.0
281.019558743	0.5	scence	0.533646241995	w058.jpg	1.0
282.269592396	0.5	scence	0.733573648613	s060.jpg	2.0
283.519532302	0.5	scence	0.633752067224	w066.jpg	1.0
284.770002536	0.5	scence	0.700257021352	s059.jpg	1.0
286.019580076	0.5	scence	0.765472662053	s065.jpg	2.0
287.269672621	0.5	scence	0.633641194087	s072.jpg	2.0
288.519731813	0.5	scence	0.767213580781	s068.jpg	1.0
289.769685841	0.5	scence	0.63363187958	w069.jpg	1.0
291.020285578	0.5	scence		s051.jpg	
292.269574067	0.5	scence	0.633553156513	s068.jpg	2.0
293.519686442	0.5	math	0.716967917047	3	1.0
294.769674724	0.5	math	0.666892920039	7	2.0
296.019689147	0.5	math	0.5169512711	9	2.0
297.269705071	0.5	math	0.583595042001	1	1.0
298.519779287	0.5	math	0.500280037289	6	2.0
299.769799118	0.5	math	0.483675808064	1	1.0
301.019747438	0.5	math	0.900298606372	8	2.0
302.269798217	0.5	math	0.533538373536	3	1.0
303.519818048	0.5	math	0.683691853308	1	1.0
304.769751043	0.5	math	0.466939072008	8	2.0
306.02929695	0.5	face	0.500323605258	EMImale23neutral.bmp	2.0
307.270129935	0.5	face	0.6837408297	TMWfemale25-2neutral.bmp	1.0
308.519852902	0.5	face	0.633571785758	EMBfemale29neutral.bmp	1.0
309.769944846	0.5	face	0.583730854094	WWmale21-2neutral.bmp	2.0
311.019878142	0.5	face	0.633564574411	TSFWfemale26neutral.bmp	1.0
312.269980001	0.5	face	0.916955417604	TSFWmale23neutral.bmp	1.0
313.520085766	0.5	face	0.450282260776	EMWfemale27-3neutral.bmp	1.0
314.770080057	0.5	face	0.550219522789	WImale26neutral.bmp	2.0
316.020092376	0.5	face	0.366956739686	WImale24-2neutral.bmp	2.0
317.270042799	0.5	face	0.766953674844	EMWmale23-2neutral.bmp	1.0
318.520034987	0.5	face	0.533502617734	Wmale_23.bmp	2.0
319.770774441	0.5	face	0.517045918852	WImale25-2neutral.bmp	2.0
321.020096583	0.5	face	0.533605378238	WWfemale22-4neutral.bmp	1.0
322.270102893	0.5	face	0.583670760272	EMWfemale25neutral.bmp	1.0
323.520096282	0.5	face	0.616913772537	WImale24-2neutral.bmp	2.0
324.770061428	0.5	face	0.700086054392	EMWfemale27neutral.bmp	1.0
326.020055419	0.5	face	0.683623346267	TMBfemale19neutral.bmp	1.0
327.270164789	0.5	face	0.617071518791	EMBmale20neutral.bmp	2.0
328.520116113	0.5	face	0.833735962049	EMBfemale25neutral.bmp	1.0
329.770217071	0.5	face		EMImale24neutral.bmp	
331.020132639	0.5	math	0.0335735284025	6	2.0
332.270307212	0.5	math	0.600394876557	3	1.0
333.520238705	0.5	math	0.516935045831	8	2.0
334.770284376	0.5	math	0.766953073908	2	1.0
336.020369409	0.5	math	0.616915274877	2	1.0
337.270297296	0.5	math	0.700312608271	3	1.0
338.520316526	0.5	math	0.633591616759	6	2.0
339.770253127	0.5	math	0.466889795032	6	2.0
341.020337259	0.5	math	0.700304795988	4	1.0
342.270358893	0.5	math	0.633621663554	7	2.0
343.529607034	0.5	scence	0.567030474776	s063.jpg	2.0
344.77058124	0.5	scence	0.615526205744	w075.jpg	1.0
346.020424395	0.5	scence	0.733670700225	s060.jpg	2.0
347.270503118	0.5	scence	0.700296082417	s055.jpg	2.0
348.520371212	0.5	scence	0.683720397763	w074.jpg	1.0
349.770391343	0.5	scence	0.683617036324	s068.jpg	2.0
351.020464958	0.5	scence	0.716967015644	s052.jpg	2.0
352.270508827	0.5	scence	0.800300649484	w058.jpg	1.0
353.520449334	0.5	scence	0.783617697423	w074.jpg	1.0
354.770540376	0.5	scence	0.75019530498	w058.jpg	1.0
356.020640733	0.5	scence	0.616985284258	s072.jpg	2.0
357.270631418	0.5	scence	0.633645701106	w078.jpg	1.0
358.520654855	0.5	scence	0.800318978145	s059.jpg	1.0
359.77076723	0.5	scence	0.550166640198	s063.jpg	1.0
361.020541578	0.5	scence	0.900341873872	s056.jpg	2.0
362.270521747	0.5	scence	0.750239474	s054.jpg	2.0
363.520663268	0.5	scence	0.600313449395	w078.jpg	1.0
364.770737183	0.5	scence	0.750300168758	w062.jpg	1.0
366.020678892	0.5	scence	0.683658801601	w066.jpg	1.0
367.270726967	0.5	scence	0.633614752791	s061.jpg	2.0
368.520640432	0.5	math	0.750279736822	9	2.0
369.770722761	0.5	math	0.533623406314	2	1.0
371.020663869	0.5	math	0.466942377272	3	1.0
372.270691512	0.5	math	0.550230940571	8	2.0
373.520841146	0.5	math	0.51690499892	8	2.0
374.770787962	0.5	math	0.916946403566	7	2.0
376.020890723	0.5	math	0.650272765895	3	1.0
377.270877202	0.5	math	0.55021651811	3	1.0
378.520829427	0.5	math	0.600276191253	8	2.0
379.770852563	0.5	math		6	
381.030623221	0.5	face	0.683563853265	WWmale20-2neutral.bmp	2.0
382.271271718	0.5	face	0.78363722784	WImale24-2neutral.bmp	2.0
383.521123887	0.5	face	0.583734159358	EMWfemale25neutral.bmp	1.0
384.770814704	0.5	face	0.666906441096	TMBfemale20neutral.bmp	1.0
386.020857671	0.5	face	0.733557723812	WWfemale22-3neutral.bmp	1.0
387.271046366	0.5	face	0.683633261709	EMBmale26neutral.bmp	2.0
388.52098507	0.5	face	0.616899650428	EMImale25-3neutral.bmp	2.0
389.771004	0.5	face	0.683675928391	WWmale23-2neutral.bmp	2.0
391.020929183	0.5	face	0.75022685423	TMBfemale19-2neutral.bmp	1.0
392.271000394	0.5	face	0.633755672839	EMBmale20neutral.bmp	2.0
393.521033145	0.5	face	0.533950316836	EMWfemale26neutral.bmp	1.0
394.770988075	0.5	face	0.550361644709	EMWmale23-2neutral.bmp	2.0
396.021047868	0.5	face	0.766987027018	TMWfemale26neutral.bmp	1.0
397.27108753	0.5	face	0.633698283229	TMBfemale18neutral.bmp	1.0
398.521116976	0.5	face	0.616954636411	TSFWfemale26neutral.bmp	1.0
399.771186084	0.5	face	0.7337001462	TMWfemale25-3neutral.bmp	1.0
401.02121553	0.5	face	0.666955417604	WImale26neutral.bmp	2.0
402.271111568	0.5	face	0.533630617545	EMImale25-3neutral.bmp	2.0
403.521117277	0.5	face		TMWmale22-3neutral.bmp	
404.771389502	0.5	face	0.633838602342	TSFWfemale26neutral.bmp	1.0
406.021265708	0.5	math	0.600239233579	6	2.0
407.271229652	0.5	math	0.566941836383	6	2.0
408.521246479	0.5	math	0.516927834484	3	1.0
409.771284037	0.5	math	0.817005836288	9	2.0
411.021271117	0.5	math	0.300273306784	3	2.0
412.271290948	0.5	math	0.416944901226	3	1.0
413.521382892	0.5	math	0.400305817602	3	1.0
414.771331511	0.5	math	0.433549130219	2	1.0
416.021376882	0.5	math	0.466924949898	3	1.0
417.271306272	0.5	math	0.483640653314	1	1.0
418.530665587	0.5	scence	0.83359804668	s057.jpg	2.0
419.772261464	0.5	scence	0.600274989381	s057.jpg	2.0
421.021340525	0.5	scence	0.666990872938	s052.jpg	2.0
422.271454103	0.5	scence	0.683668717043	w077.jpg	1.0
423.52139461	0.5	scence	0.716849832796	s068.jpg	2.0
424.77162537	0.5	scence	0.583633502014	w076.jpg	1.0
426.021503981	0.5	scence	0.616942617577	w077.jpg	1.0
427.271511793	0.5	scence	0.632797476603	w075.jpg	1.0
428.521484751	0.5	scence	0.700361584662	w066.jpg	1.0
429.771467323	0.5	scence	0.650277273031	w077.jpg	1.0
431.021482948	0.5	scence	0.667020018445	s060.jpg	2.0
432.271611549	0.5	scence	0.816907883389	s063.jpg	2.0
433.521508187	0.5	scence		s068.jpg	
434.771460112	0.5	scence	0.600238332176	s055.jpg	2.0
436.02168306	0.5	scence	0.516930839163	s061.jpg	2.0
437.27173444	0.5	scence	0.667001689901	w073.jpg	1.0
438.521668337	0.5	scence	0.550392593024	w058.jpg	1.0
439.771749464	0.5	scence	0.50026140816	w076.jpg	1.0
441.021689671	0.5	scence	0.566926211934	s060.jpg	2.0
442.271718215	0.5	scence	0.783614692744	s068.jpg	2.0
443.521654816	0.5	math	0.933703571558	9	2.0
444.771752168	0.5	math		6	
446.021671943	0.5	math	0.366929697455	6	2.0
447.271845013	0.5	math	0.283623706782	6	2.0
448.521723924	0.5	math	0.500257201609	2	1.0
449.771829689	0.5	math	0.53361439216	1	1.0
451.02188167	0.5	math	0.566956258845	2	1.0
452.27181767	0.5	math	0.600285806227	6	2.0
453.521823379	0.5	math	0.483583263704	7	2.0
454.771847417	0.5	math	0.600271984702	2	1.0
456.031369286	0.5	face	0.566879338818	EMImale21neutral.bmp	2.0
457.272089896	0.5	face	0.75028724852	TMWfemale23neutral.bmp	1.0
458.522008468	0.5	face	0.733636446646	TMBfemale18neutral.bmp	1.0
459.771997652	0.5	face	0.483577254228	EMWfemale27-3neutral.bmp	1.0
461.022029201	0.5	face	0.600250050426	WImale22-2neutral.bmp	2.0
462.272004562	0.5	face	0.816931019537	WBmale26-2neutral.bmp	2.0
463.522064656	0.5	face	0.550235147239	TMBmale21neutral.bmp	2.0
464.772039717	0.5	face	0.550270302105	TMWfemale23neutral.bmp	1.0
466.022016882	0.5	face	0.567042793962	TMBfemale18neutral.bmp	1.0
467.272070365	0.5	face	0.850360322627	WWmale28-2neutral.bmp	2.0
468.522325163	0.5	face	0.433732717065	WWmale28-2neutral.bmp	2.0
469.772110027	0.5	face	0.550294339657	WImale22-2neutral.bmp	2.0
471.022121745	0.5	face	0.700235087075	EMWmale21neutral.bmp	2.0
472.272088093	0.5	face	0.683650088031	TMHmale18neutral.bmp	2.0
473.522164412	0.5	face	0.666943699354	TSFWmale21neutral.bmp	2.0
474.772192656	0.5	face	0.550195184769	TMWfemale24neutral.bmp	1.0
476.02223382	0.5	face	0.616943218512	EMBfemale26neutral.bmp	1.0
477.272204675	0.5	face	0.750287548988	TMWfemale27neutral.bmp	1.0
478.522205576	0.5	face	0.633548949962	TMBfemale19neutral.bmp	1.0
479.77231074	0.5	face	0.700316814706	EMWfemale24-2neutral (1).bmp	1.0
481.022245839	0.5	math	0.783603575313	6	2.0
482.272225708	0.5	math	0.633676949888	8	2.0
483.522271679	0.5	math	0.466933062766	2	1.0
484.772304731	0.5	math	0.466962508624	2	1.0
486.022294515	0.5	math	0.433678031666	9	2.0
487.272316449	0.5	math	0.516976510524	8	2.0
488.522344694	0.5	math	0.550317475805	6	2.0
489.772473895	0.5	math	0.566943038255	4	1.0
491.022364224	0.5	math	0.400206061779	4	1.0
492.272610609	0.5	math	0.500566985342	1	1.0
493.531335934	0.5	scence	0.650246324716	s063.jpg	2.0
494.772503341	0.5	scence	0.750225351891	w053.jpg	1.0
496.022494327	0.5	scence	0.566988409148	w062.jpg	1.0
497.272536693	0.5	scence	0.56689947017	w074.jpg	1.0
498.522493125	0.5	scence	0.666995079489	s070.jpg	2.0
499.772609407	0.5	scence	0.766948566888	w062.jpg	1.0
501.022468487	0.5	scence	0.698735445272	s065.jpg	2.0
502.272579961	0.5	scence	0.617030955502	w053.jpg	1.0
503.52261812	0.5	scence	0.600300228805	w069.jpg	1.0
504.772692036	0.5	scence	0.700245904038	s070.jpg	2.0
506.02251536	0.5	scence	0.766940454254	s057.jpg	2.0
507.272932712	0.5	scence	0.88353602984	s054.jpg	2.0
508.522648468	0.5	scence	0.816922906786	s055.jpg	1.0
509.772677914	0.5	scence	0.750267417636	s055.jpg	1.0
511.022606402	0.5	scence	0.767005355563	w062.jpg	1.0
512.272732299	0.5	scence	0.683677731082	s060.jpg	2.0
513.522719078	0.5	scence	0.516978914267	s056.jpg	2.0
514.772705858	0.5	scence	0.867325114901	w066.jpg	1.0
516.022812824	0.5	scence	0.766953374376	w073.jpg	1.0
517.272691134	0.5	scence	0.716957701137	w076.jpg	1.0
518.522728693	0.5	math	0.533615894616	8	2.0
519.772820937	0.5	math	0.400281779934	8	2.0
521.022760543	0.5	math	0.466888593161	7	1.0
522.272752731	0.5	math	0.483687225962	8	2.0
523.522921895	0.5	math	0.466937870136	7	2.0
524.772935115	0.5	math	0.783599969698	6	2.0
526.02279059	0.5	math	0.517012566794	1	1.0
527.273024355	0.5	math	0.416900732205	1	1.0
528.522908975	0.5	math	0.566944540595	9	2.0
529.772960956	0.5	math	0.63367815176	8	2.0
