onset	duration	trial_type	response_time	stim_file	resp	acc
6.30102970796	0.5	scene1	0.450346260681	k078.jpg	1.0	1.0
9.30103992387	0.5	baseline	0.600265374407	BL	2.0	1.0
14.803395903	0.5	face1	0.45036488981	k053.jpg	2.0	1.0
17.8010831915	0.5	COND	0.283886016347	k026.jpg	1.0	1.0
20.8011093323	0.5	scene2	0.300407015602	k085.jpg	2.0	0.0
23.8012355294	0.5	baseline	0.183716191212	BL	1.0	1.0
29.3046948314	0.5	scene2	0.381473008194	k085.jpg	2.0	0.0
32.3013584213	0.5	COND	0.366979274899	k026.jpg	2.0	1.0
35.3014281302	0.5	face2	0.466986846644	k025.jpg	2.0	1.0
38.3013920738	0.5	COND	0.433717092616	k026.jpg	2.0	1.0
41.3013421959	0.5	face2	0.40034367668	k025.jpg	2.0	0.0
44.3014257263	0.5	COND	0.400310024153	k026.jpg	2.0	1.0
47.3014719986	0.5	scene2	0.383646302042	k085.jpg	2.0	1.0
50.3014224212	0.5	baseline	0.483646963025	BL	1.0	1.0
55.8025951526	0.5	scene2	0.350307740504	k085.jpg	1.0	1.0
58.8015609375	0.5	baseline	0.283640833455	BL	1.0	1.0
64.3027553027	0.5	face2	0.417109257774	k025.jpg	1.0	1.0
67.3018064209	0.5	COND	0.300280518131	k026.jpg	2.0	1.0
70.3017775758	0.5	scene2	0.433745937655	k085.jpg	2.0	0.0
73.3018767307	0.5	COND	0.400325948955	k026.jpg	2.0	1.0
76.3018370687	0.5	face2	0.383649607305	k025.jpg	2.0	1.0
79.3018944583	0.5	COND	0.266975308652	k026.jpg	2.0	1.0
82.3019404301	0.5	face1	0.183653393178	k053.jpg	1.0	1.0
85.3019587588	0.5	COND	0.250504187308	k026.jpg	1.0	0.0
88.3019848996	0.5	face1	0.43371889554	k053.jpg	1.0	0.0
91.3021372375	0.5	COND	0.333703210927	k026.jpg	2.0	0.0
94.3025320541	0.5	face1	0.21689550404	k053.jpg	2.0	1.0
97.3024563358	0.5	COND	0.167157933814	k026.jpg	2.0	0.0
100.302211453	0.5	face2	0.300318076741	k025.jpg	2.0	1.0
103.302209951	0.5	COND	0.0669328222284	k026.jpg	2.0	1.0
106.302278158	0.5	scene2	0.30030125042	k085.jpg	1.0	1.0
109.302326233	0.5	COND	0.23368902877	k026.jpg	2.0	1.0
112.302366195	0.5	scene1	0.26699604094	k078.jpg	1.0	1.0
115.302412467	0.5	baseline	0.433627552702	BL	1.0	1.0
120.803554851	0.5	scene1	0.483469986706	k078.jpg	1.0	1.0
123.802514026	0.5	COND	0.150311826961	k026.jpg	2.0	1.0
126.802544674	0.5	scene2	0.366981378058	k085.jpg	2.0	0.0
129.802668167	0.5	baseline	0.316986005288	BL	2.0	1.0
135.305851638	0.5	face1	0.416865276755	k053.jpg	2.0	1.0
138.302829519	0.5	COND	0.0335395754082	k026.jpg	1.0	1.0
141.302782645	0.5	face1	0.216963710613	k053.jpg	2.0	1.0
144.302794063	0.5	COND	0.0836362063419	k026.jpg	1.0	1.0
147.302923265	0.5	scene2	0.283657359309	k085.jpg	1.0	0.0
150.302882101	0.5	COND	0.166924769641	k026.jpg	1.0	1.0
153.303024823	0.5	scene2	0.217057156493	k085.jpg	2.0	0.0
156.302980655	0.5	baseline	0.200414767722	BL	2.0	0.0
161.80416871	0.5	scene2	0.06708155456	k085.jpg	2.0	1.0
164.803272711	0.5	COND	0.200305396924	k026.jpg	1.0	0.0
167.80311887	0.5	scene2	0.283618899295	k085.jpg	1.0	1.0
170.803171453	0.5	baseline	0.283645340591	BL	2.0	1.0
176.304331564	0.5	scene1	0.450443312293	k078.jpg	2.0	0.0
179.303319884	0.5	baseline	0.300321682356	BL	2.0	1.0
184.806349515	0.5	face1	0.266975008184	k053.jpg	1.0	1.0
187.803404617	0.5	COND	0.466998564894	k026.jpg	1.0	1.0
190.803460504	0.5	scene1	0.28366096504	k078.jpg	1.0	1.0
193.803475828	0.5	COND	0.450367594021	k026.jpg	2.0	1.0
196.803559358	0.5	face2	0.283615894616	k025.jpg	2.0	0.0
199.803604128	0.5	COND	0.250377689837	k026.jpg	1.0	1.0
202.803693067	0.5	scene1	0.400305216666	k078.jpg	1.0	0.0
205.803667527	0.5	COND	0.0170594400261	k026.jpg	1.0	1.0
208.803796729	0.5	scene1	0.23358867201	k078.jpg	1.0	1.0
211.803897687	0.5	COND	0.200316514238	k026.jpg	1.0	1.0
214.803872748	0.5	scene2	0.300332499202	k085.jpg	2.0	0.0
217.803839396	0.5	COND	0.333625689964	k026.jpg	1.0	1.0
220.803968898	0.5	face2	0.200321021257	k025.jpg	2.0	0.0
223.803928635	0.5	baseline	0.200357378111	BL	1.0	1.0
229.307083562	0.5	scene2	0.233549310593	k085.jpg	1.0	0.0
232.304065949	0.5	COND	0.250328112277	k026.jpg	2.0	1.0
235.304168109	0.5	scene1	0.46700217051	k078.jpg	2.0	0.0
238.304222494	0.5	baseline	0.133616555599	BL	2.0	1.0
243.807542078	0.5	face1	0.15034217434	k053.jpg	2.0	1.0
246.80432916	0.5	COND	0.000316093675792	k026.jpg	1.0	1.0
249.804284991	0.5	face1	0.233651770628	k053.jpg	2.0	1.0
252.804356503	0.5	baseline		BL		0.0
258.307027975	0.5	scene1	0.150313329301	k078.jpg	1.0	1.0
261.30444394	0.5	COND	0.300319578964	k026.jpg	2.0	1.0
264.304448146	0.5	scene2	0.150315132109	k085.jpg	1.0	1.0
267.304544897	0.5	COND	0.100343195838	k026.jpg	2.0	1.0
270.304583658	0.5	scene2	0.116984382737	k085.jpg	2.0	1.0
273.304677104	0.5	baseline	0.250342835439	BL	1.0	1.0
278.805800558	0.5	face2	0.0502871284261	k025.jpg	2.0	1.0
281.805283751	0.5	baseline	0.316951751825	BL	1.0	1.0
287.30587207	0.5	scene1	0.183639571653	k078.jpg	2.0	1.0
290.304894043	0.5	baseline	0.216969118919	BL	1.0	1.0
295.806069178	0.5	face2	0.36710577237	k025.jpg	1.0	1.0
298.805020841	0.5	COND	0.400337366853	k026.jpg	1.0	0.0
301.805061404	0.5	face2	0.266987026902	k025.jpg	2.0	1.0
304.805082437	0.5	COND	0.133664330235	k026.jpg	1.0	1.0
307.805171075	0.5	face2	0.166977351881	k025.jpg	2.0	1.0
310.805171676	0.5	baseline	0.350316153606	BL	1.0	1.0
316.306363637	0.5	face1	0.10029361851	k053.jpg	2.0	0.0
319.30528315	0.5	COND	0.150240615825	k026.jpg	1.0	0.0
322.305953497	0.5	face2	0.0168599283788	k025.jpg	1.0	1.0
325.305384108	0.5	COND	0.250338328304	k026.jpg	1.0	1.0
328.305432784	0.5	scene1	0.433571064612	k078.jpg	1.0	1.0
331.305488972	0.5	COND	0.20029578195	k026.jpg	2.0	1.0
334.305529835	0.5	face2	0.133638790343	k025.jpg	2.0	1.0
337.305555976	0.5	COND	0.000319398823194	k026.jpg	1.0	1.0
340.305668953	0.5	scene2	0.216946884291	k085.jpg	1.0	1.0
343.305754887	0.5	baseline	0.350359421223	BL	2.0	1.0
348.806782191	0.5	face1	0.150287488941	k053.jpg	1.0	0.0
351.805727244	0.5	baseline	0.133691071998	BL	2.0	1.0
357.308823879	0.5	face2	0.133662226959	k025.jpg	2.0	1.0
360.305896107	0.5	baseline	0.117027049419	BL	1.0	1.0
365.807051411	0.5	face2	0.183632360189	k025.jpg	2.0	1.0
368.80610283	0.5	COND	0.166999286041	k026.jpg	2.0	1.0
371.806123863	0.5	scene2	0.116951331263	k085.jpg	1.0	1.0
374.806106436	0.5	baseline	0.333639811957	BL	1.0	1.0
380.307265646	0.5	scene2	0.150289892685	k085.jpg	1.0	1.0
383.306258473	0.5	baseline	0.283617396955	BL	2.0	1.0
388.807321834	0.5	scene2	0.266982820351	k085.jpg	2.0	1.0
391.806408107	0.5	COND	0.183658200665	k026.jpg	2.0	1.0
394.806370248	0.5	scene1	0.483727188315	k078.jpg	2.0	1.0
397.806501553	0.5	baseline	0.0835466664284	BL	2.0	1.0
403.307589251	0.5	scene2	0.100310144364	k085.jpg	2.0	1.0
406.306491036	0.5	baseline	0.200338748982	BL	2.0	1.0
411.80766527	0.5	face1	0.183753148885	k053.jpg	2.0	1.0
414.806593797	0.5	baseline	0.166945201694	BL	1.0	1.0
420.307700125	0.5	scene1	0.0502177199814	k078.jpg	1.0	1.0
423.306780989	0.5	COND	0.233596484293	k026.jpg	1.0	1.0
426.307100989	0.5	face2	0.333589934045	k025.jpg	2.0	1.0
429.307516237	0.5	baseline	0.283062730683	BL	1.0	1.0
434.807999091	0.5	face2	0.033641734859	k025.jpg	2.0	1.0
437.80701866	0.5	COND	0.150306418538	k026.jpg	1.0	0.0
440.807045102	0.5	face2	0.317017554655	k025.jpg	2.0	1.0
443.807020764	0.5	COND	0.0503210814204	k026.jpg	1.0	1.0
446.80706974	0.5	scene2	0.0170348015381	k085.jpg	2.0	1.0
449.807122322	0.5	COND	0.0503267903114	k026.jpg	2.0	1.0
452.807174904	0.5	face1	0.200223368825	k053.jpg	2.0	0.0
455.807224482	0.5	COND	0.0669493480818	k026.jpg	1.0	0.0
458.807342867	0.5	scene1	0.0669490476139	k078.jpg	1.0	1.0
461.807395449	0.5	baseline	0.000292056123726	BL	2.0	1.0
467.308481344	0.5	face1	0.466979034478	k053.jpg	1.0	1.0
470.307412575	0.5	COND	0.333693295368	k026.jpg	2.0	1.0
473.307488895	0.5	scene1	0.150383939617	k078.jpg	1.0	1.0
476.307511129	0.5	baseline	0.283868589206	BL	2.0	1.0
481.808714508	0.5	face1	0.28384214791	k053.jpg	2.0	0.0
484.807699223	0.5	COND	0.316962869256	k026.jpg	2.0	1.0
487.807689908	0.5	face1	0.183681637282	k053.jpg	1.0	1.0
490.807864181	0.5	COND	0.450265133986	k026.jpg	1.0	1.0
493.807854566	0.5	scene1	0.233639150858	k078.jpg	1.0	1.0
496.807910152	0.5	COND	0.333637408214	k026.jpg	2.0	1.0
499.807886415	0.5	scene2	0.183500454412	k085.jpg	2.0	1.0
502.807914359	0.5	COND	0.217049644678	k026.jpg	1.0	1.0
505.808090434	0.5	face1	0.250307680457	k053.jpg	2.0	0.0
508.80801742	0.5	baseline	0.433705073898	BL	1.0	1.0
514.311402506	0.5	scene1	0.400470775203	k078.jpg	1.0	1.0
517.308202809	0.5	COND	0.250292056007	k026.jpg	1.0	1.0
520.308295955	0.5	scene1	0.166970741586	k078.jpg	1.0	1.0
523.308231655	0.5	COND	0.350326069165	k026.jpg	1.0	1.0
526.30830557	0.5	face2	0.217062264448	k025.jpg	1.0	1.0
529.308359955	0.5	scene2	0.500325107714	k085.jpg	2.0	0.0
532.308409532	0.5	baseline	0.100281299208	BL	1.0	1.0
537.811529304	0.5	scene1	0.416939192219	k078.jpg	2.0	1.0
540.808519804	0.5	face1	0.383642395958	k053.jpg	1.0	1.0
543.808586509	0.5	scene1	0.400300709531	k078.jpg	1.0	1.0
546.808703091	0.5	face2	0.216969719855	k025.jpg	1.0	1.0
549.808653213	0.5	COND	0.0168097501155	k026.jpg	2.0	0.0
552.808791429	0.5	face2	0.283691612771	k025.jpg	2.0	1.0
555.808823278	0.5	COND	0.266983721755	k026.jpg	1.0	0.0
558.808795335	0.5	face2	0.28372286167	k025.jpg	2.0	1.0
561.808844011	0.5	scene1	0.450208044844	k078.jpg	1.0	1.0
564.808874358	0.5	scene1	0.0170149706537	k078.jpg	1.0	1.0
567.808939861	0.5	face1	0.0503108655103	k053.jpg	2.0	1.0
570.809272179	0.5	face1	0.450299087097	k053.jpg	2.0	1.0
573.809119241	0.5	face2	0.416861671256	k025.jpg	1.0	1.0
576.809047729	0.5	face1	0.200302692596	k053.jpg	1.0	1.0
579.809121945	0.5	baseline	0.466982039157	BL	2.0	1.0
585.310212348	0.5	face1	0.300251672976	k053.jpg	1.0	1.0
588.309190752	0.5	face1	0.166971042054	k053.jpg	2.0	1.0
591.30934309	0.5	scene2	0.166986065451	k085.jpg	2.0	1.0
594.309295917	0.5	face1	0.150328352815	k053.jpg	2.0	0.0
597.309341588	0.5	face2	0.300331898266	k025.jpg	2.0	1.0
600.3094777	0.5	scene1	0.350354313385	k078.jpg	1.0	1.0
603.309499334	0.5	face2	0.25029986829	k025.jpg	2.0	1.0
606.309481606	0.5	face1	0.0836473236559	k053.jpg	1.0	0.0
609.309507447	0.5	scene1	0.400259545306	k078.jpg	2.0	1.0
612.309558226	0.5	scene2	0.233674005372	k085.jpg	2.0	1.0
615.309612311	0.5	scene1	0.133627372445	k078.jpg	2.0	1.0
618.309756235	0.5	COND	0.400353592122	k026.jpg	2.0	1.0
